{
  "id": "a6375c33-d97f-4f79-bc31-30f479827fd4",
  "contained": [
    {
      "id": "a3ae7c77-b7e9-4d5c-98bd-12d284872955",
      "resourceType": "Practitioner",
      "identifier": [
        {
          "value": "vanni.agnoletti"
        },
        {
          "value": "Vanni Agnoletti"
        }
      ],
      "active": true
    },
    {
      "id": "cb7b2815-b14b-409c-a713-33c1379358a5",
      "resourceType": "Patient",
      "name": [
        {
          "family": "Rossi",
          "given": [
            "Mario"
          ]
        }
      ],
      "gender": "M"
    },
    {
      "id": "0",
      "resourceType": "Procedure",
      "location": {
        "display": "PRE-H"
      },
      "status": "completed",
      "code": {
        "text": "room-in"
      },
      "encounter": {
        "reference": "#a6375c33-d97f-4f79-bc31-30f479827fd4",
        "type": "Encounter",
        "display": "Encounter pre ospedalizzazione"
      },
      "performedDateTime": "2020-02-04T02:56:25Z"
    },
    {
      "id": "1",
      "resourceType": "Procedure",
      "location": {
        "display": "PRE-H"
      },
      "status": "completed",
      "code": {
        "coding": [
          {
            "system": "http://www.snomed.org/",
            "code": "32485007",
            "display": "Hospital admission (procedure)"
          }
        ],
        "text": "patient-accepted"
      },
      "encounter": {
        "reference": "#a6375c33-d97f-4f79-bc31-30f479827fd4",
        "type": "Encounter",
        "display": "Encounter pre ospedalizzazione"
      },
      "performedDateTime": "2020-02-04T02:57:59Z"
    },
    {
      "id": "22",
      "resourceType": "Procedure",
      "location": {
        "display": "Trasporto"
      },
      "status": "completed",
      "code": {
        "text": "room-in"
      },
      "encounter": {
        "reference": "#a6375c33-d97f-4f79-bc31-30f479827fd4",
        "type": "Encounter",
        "display": "Encounter pre ospedalizzazione"
      },
      "performedDateTime": "2020-02-04T02:59:24Z"
    },
    {
      "id": "23",
      "resourceType": "Procedure",
      "location": {
        "display": "Trasporto"
      },
      "status": "completed",
      "code": {
        "text": "room-out"
      },
      "encounter": {
        "reference": "#a6375c33-d97f-4f79-bc31-30f479827fd4",
        "type": "Encounter",
        "display": "Encounter pre ospedalizzazione"
      },
      "performedDateTime": "2020-02-04T02:59:35Z"
    }
  ],
  "resourceType": "Encounter",
  "status": "finished",
  "serviceType": {
    "coding": [
      {
        "code": "117",
        "display": "Emergency Medical"
      }
    ],
    "text": "Emergency intervention"
  },
  "priority": {
    "coding": [
      {
        "system": "http://www.eena.it/",
        "code": "Codice ROSSO",
        "display": "Codice ammissione pronto soccorso"
      }
    ]
  },
  "subject": {
    "reference": "#cb7b2815-b14b-409c-a713-33c1379358a5",
    "type": "Patient",
    "display": "Mario Rossi età 40"
  },
  "participant": [
    {
      "type": [
        {
          "coding": [
            {
              "system": "http://terminology.hl7.org/CodeSystem/v3-ParticipationType",
              "code": "PPRF",
              "display": "primary performer"
            }
          ],
          "text": "Trauma Leader"
        }
      ],
      "individual": {
        "reference": "#a3ae7c77-b7e9-4d5c-98bd-12d284872955",
        "type": "Practitioner",
        "display": "Vanni Agnoletti"
      }
    },
    {
      "type": [
        {
          "coding": [
            {
              "system": "http://terminology.hl7.org/CodeSystem/v3-ParticipationType",
              "code": "SPRF",
              "display": "secondary performer"
            }
          ],
          "text": "Trauma team members"
        }
      ],
      "individual": {
        "type": "Practitioner",
        "display": "Medico PS"
      }
    },
    {
      "type": [
        {
          "coding": [
            {
              "system": "http://terminology.hl7.org/CodeSystem/v3-ParticipationType",
              "code": "SPRF",
              "display": "secondary performer"
            }
          ],
          "text": "Trauma team members"
        }
      ],
      "individual": {
        "type": "Practitioner",
        "display": "Anestesista"
      }
    },
    {
      "type": [
        {
          "coding": [
            {
              "system": "http://terminology.hl7.org/CodeSystem/v3-ParticipationType",
              "code": "SPRF",
              "display": "secondary performer"
            }
          ],
          "text": "Trauma team members"
        }
      ],
      "individual": {
        "type": "Practitioner",
        "display": "Radiologo"
      }
    },
    {
      "type": [
        {
          "coding": [
            {
              "system": "http://terminology.hl7.org/CodeSystem/v3-ParticipationType",
              "code": "SPRF",
              "display": "secondary performer"
            }
          ],
          "text": "Trauma team members"
        }
      ],
      "individual": {
        "type": "Practitioner",
        "display": "Chirurgo Urgenze"
      }
    },
    {
      "type": [
        {
          "coding": [
            {
              "system": "http://terminology.hl7.org/CodeSystem/v3-ParticipationType",
              "code": "SPRF",
              "display": "secondary performer"
            }
          ],
          "text": "Trauma team members"
        }
      ],
      "individual": {
        "type": "Practitioner",
        "display": "Neurochirurgo"
      }
    },
    {
      "type": [
        {
          "coding": [
            {
              "system": "http://terminology.hl7.org/CodeSystem/v3-ParticipationType",
              "code": "SPRF",
              "display": "secondary performer"
            }
          ],
          "text": "Trauma team members"
        }
      ],
      "individual": {
        "type": "Practitioner",
        "display": "Chirurgo Ortopedico"
      }
    },
    {
      "type": [
        {
          "coding": [
            {
              "system": "http://terminology.hl7.org/CodeSystem/v3-ParticipationType",
              "code": "SPRF",
              "display": "secondary performer"
            }
          ],
          "text": "Trauma team members"
        }
      ],
      "individual": {
        "type": "Practitioner",
        "display": "Maxillo-Facciale"
      }
    },
    {
      "type": [
        {
          "coding": [
            {
              "system": "http://terminology.hl7.org/CodeSystem/v3-ParticipationType",
              "code": "SPRF",
              "display": "secondary performer"
            }
          ],
          "text": "Trauma team members"
        }
      ],
      "individual": {
        "type": "Practitioner",
        "display": "Urologo"
      }
    }
  ],
  "diagnosis": [
    {
      "condition": {
        "reference": "/Condition/ca116092-b66f-4e05-81aa-00831f1d1b38",
        "type": "Condition",
        "display": "Trauma Condition"
      },
      "use": {
        "coding": [
          {
            "system": "https://www.hl7.org/fhir/codesystem-diagnosis-role.html",
            "code": "AD",
            "display": "Admission diagnosis"
          }
        ],
        "text": "Trauma Condition"
      }
    }
  ],
  "hospitalization": {
    "preAdmissionIdentifier": {
      "value": "123456789"
    },
    "dischargeDisposition": {
      "text": "1472583690"
    }
  },
  "location": [
    {
      "location": {
        "display": "Elicottero"
      },
      "status": "completed",
      "physicalType": {
        "coding": [
          {
            "system": "https://www.hl7.org/fhir/valueset-location-physical-type.html",
            "code": "ve",
            "display": "Vehicle"
          }
        ],
        "text": "Trasporto con Elicottero"
      }
    },
    {
      "location": {
        "display": "Territorial Area: Cesena"
      },
      "physicalType": {
        "coding": [
          {
            "system": "https://www.hl7.org/fhir/codesystem-location-physical-type.html",
            "code": "si",
            "display": "Site"
          }
        ],
        "text": "Territorial Area"
      }
    },
    {
      "location": {
        "display": "PRE-H"
      },
      "period": {
        "start": "2020-02-04T02:56:25Z"
      }
    },
    {
      "location": {
        "display": "PRE-H"
      },
      "period": {
        "start": "2020-02-04T02:57:59Z"
      }
    },
    {
      "location": {
        "display": "Trasporto"
      },
      "period": {
        "start": "2020-02-04T02:59:24Z"
      }
    },
    {
      "location": {
        "display": "Trasporto"
      },
      "period": {
        "start": "2020-02-04T02:59:35Z"
      }
    }
  ],
  "serviceProvider": {
    "display": "Ospedale Bufalini"
  },
  "partOf": {
    "reference": "/Encounter/5e61f7a0-e7ba-4844-b83e-22aa51129638"
  },
  "class": {
    "code": "EMER",
    "display": "Emergency"
  },
  "meta": {
    "versionId": "c7ca3d44-2535-4430-9ca4-6c0bd8babb40",
    "lastUpdated": "2020-02-11T21:04:12.154Z"
  }
}
