{
  "cursor": {
    "firstBatch": [
      {
        "_id": "5e57e550f9b0417610a44d29",
        "id": "8ce89f02-ddd1-404d-8d98-70f8b9af16cc",
        "resourceType": "Condition",
        "code": {
          "coding": [
            {
              "system": "http://www.snomed.org/",
              "code": "417163006",
              "display": "Traumatic AND/OR non-traumatic injury (disorder)"
            },
            {
              "system": "http://www.snomed.org/",
              "code": "418399005",
              "display": "Motor vehicle accident"
            }
          ],
          "text": "Trauma Condition gestione pre ospedaliera"
        },
        "encounter": {
          "reference": "/Encounter/0ea2567a-b9e8-4ff0-a6db-d4789725dc2a",
          "type": "Encounter",
          "display": "Encounter pre ospedalizzazione"
        },
        "onsetDateTime": "2020-02-04T09:57:45+01:00",
        "evidence": [
          {
            "code": [
              {
                "coding": [
                  {
                    "system": "http://www.snomed.org/",
                    "code": "416886008",
                    "display": "Closed wound"
                  }
                ],
                "text": "Type of accident chiuso"
              }
            ],
            "detail": [
              {
                "reference": "/Observation/08d40c34-5070-4a79-92b4-c7bd658d91f3",
                "type": "Observation",
                "display": "Type of accident chiuso"
              }
            ]
          },
          {
            "code": [
              {
                "coding": [
                  {
                    "system": "http://www.snomed.org/",
                    "code": "229027002",
                    "display": "Dynamic"
                  }
                ],
                "text": "Major Trauma Criteria - Dynamic"
              }
            ]
          },
          {
            "code": [
              {
                "coding": [
                  {
                    "system": "http://www.snomed.org/",
                    "code": "36298004",
                    "display": "Anatomical "
                  }
                ],
                "text": "Major Trauma Criteria - Anatomical"
              }
            ]
          },
          {
            "code": [
              {
                "coding": [
                  {
                    "system": "http://www.snomed.org/",
                    "code": "1360005",
                    "display": "Physiological"
                  }
                ],
                "text": "Major Trauma Criteria - Physiological"
              }
            ]
          },
          {
            "code": [
              {
                "coding": [
                  {
                    "system": "http://www.snomed.org/",
                    "code": "311791003",
                    "display": "Information gathering (procedure)"
                  }
                ],
                "text": "Anamnesis evidence"
              }
            ],
            "detail": [
              {
                "reference": "/Procedure/a6dad3b6-b004-44e3-8450-a64eb61ce5ef",
                "type": "Procedure",
                "display": "Anamnesi procedure"
              }
            ]
          },
          {
            "detail": [
              {
                "reference": "/Procedure/67798bc8-68c4-4c77-a132-5d2177738b8f"
              }
            ]
          },
          {
            "detail": [
              {
                "reference": "/Procedure/413baa14-ad69-4029-99e8-9d8c128325a6"
              }
            ]
          },
          {
            "detail": [
              {
                "reference": "/Procedure/8eca273d-3899-4db4-a4c6-e03c56bf02cd"
              }
            ]
          },
          {
            "code": [
              {
                "text": "Anisocoria Observation"
              }
            ],
            "detail": [
              {
                "reference": "/Observation/58691934-6ae9-445b-b8ee-2eadf5d4f21b"
              }
            ]
          },
          {
            "code": [
              {
                "text": "Midriasi Observation"
              }
            ],
            "detail": [
              {
                "reference": "/Observation/2e993972-1424-4839-b075-e1fbb2c7ef76"
              }
            ]
          },
          {
            "code": [
              {
                "text": "Motility Observation"
              }
            ],
            "detail": [
              {
                "reference": "/Observation/45d89a7b-a35d-438b-9869-395478b69d77"
              }
            ]
          },
          {
            "code": [
              {
                "text": "Glasgow Coma Scale Total"
              }
            ],
            "detail": [
              {
                "reference": "/Observation/580dbdbd-99cf-407a-a125-02a67e01287e"
              }
            ]
          },
          {
            "code": [
              {
                "text": "Worst Blood Pressure Observation"
              }
            ],
            "detail": [
              {
                "reference": "/Observation/a418ca2b-f38f-4daa-aaf6-5a95dcb13ddd"
              }
            ]
          },
          {
            "code": [
              {
                "text": "Worst Respiratory Rate Observation"
              }
            ],
            "detail": [
              {
                "reference": "/Observation/e01d5638-ce7c-40b6-968b-7eace4df2425"
              }
            ]
          }
        ],
        "meta": {
          "versionId": "c65bb045-445d-42dd-812a-af1cc6ecba7b",
          "lastUpdated": "2020-02-27T15:50:40.624099Z"
        },
        "subject": {
          "reference": "#237e56ff-46d0-441f-b9b9-b322eced95e5",
          "type": "Patient",
          "display": "Mario Rossi età 40"
        },
        "contained": [
          {
            "id": "237e56ff-46d0-441f-b9b9-b322eced95e5",
            "resourceType": "Patient",
            "name": [
              {
                "family": "Rossi",
                "given": [
                  "Mario"
                ]
              }
            ],
            "gender": "M"
          }
        ],
        "observations": []
      },
      {
        "_id": "5e57e550f9b0417610a44d2a",
        "id": "cb274438-d5dc-4adc-979a-3fc16a448bf7",
        "resourceType": "Condition",
        "code": {
          "coding": [
            {
              "system": "http://www.snomed.org/",
              "code": "417163006",
              "display": "Traumatic AND/OR non-traumatic injury (disorder)"
            }
          ],
          "text": "Patient Initial Condition"
        },
        "encounter": {
          "reference": "/Encounter/adb1fbcf-5a24-40e7-8938-c0f2640ee717",
          "type": "Encounter",
          "display": "Encounter intervention"
        },
        "evidence": [
          {
            "code": [
              {
                "coding": [
                  {
                    "system": "http://loinc.org",
                    "code": "85353-1",
                    "display": "Vital Signs"
                  }
                ],
                "text": "Patient Initial Condition Vital Sign"
              }
            ],
            "detail": [
              {
                "reference": "/Observation/11796706-39c2-4089-8576-50035b25678c",
                "type": "Observation",
                "display": "Initial Vital Signs"
              }
            ]
          },
          {
            "code": [
              {
                "text": "Glasgow Coma Scale Total"
              }
            ],
            "detail": [
              {
                "reference": "/Observation/596bbd6e-9497-4832-9ca3-8fad04c598a1",
                "type": "Observation"
              }
            ]
          },
          {
            "code": [
              {
                "text": "Patient Sedated"
              }
            ],
            "detail": [
              {
                "reference": "/Observation/3b4abedb-83e6-40a3-841d-17af2ee955a7",
                "type": "Observation"
              }
            ]
          },
          {
            "code": [
              {
                "text": "Pupils"
              }
            ],
            "detail": [
              {
                "reference": "/Observation/f382cd87-01ff-4b5f-8cf8-c2ef4487530b",
                "type": "Observation"
              }
            ]
          },
          {
            "code": [
              {
                "text": "Airways"
              }
            ],
            "detail": [
              {
                "reference": "/Observation/7afd5348-0756-4621-9c9a-c2ce11b10871",
                "type": "Observation"
              }
            ]
          },
          {
            "code": [
              {
                "text": "positiveInhalation"
              }
            ],
            "detail": [
              {
                "reference": "/Observation/8a0e9259-67d7-4ed2-ace6-5605b78208cf",
                "type": "Observation"
              }
            ]
          },
          {
            "code": [
              {
                "text": "Intubation"
              }
            ],
            "detail": [
              {
                "reference": "/Procedure/65510b05-bfa2-45cb-af44-72cdaf1b004b",
                "type": "Procedure"
              }
            ]
          },
          {
            "code": [
              {
                "text": "Chest Tube"
              }
            ],
            "detail": [
              {
                "reference": "/Observation/6b65c350-5213-42ea-b1bc-e7ad5d6d4c07",
                "type": "Observation"
              }
            ]
          },
          {
            "code": [
              {
                "text": "Hemorrhage"
              }
            ],
            "detail": [
              {
                "reference": "/Observation/23aa5aa7-78d6-47d8-bdd3-605a5f3c1268",
                "type": "Observation"
              }
            ]
          },
          {
            "code": [
              {
                "text": "Limbs Fracture"
              }
            ],
            "detail": [
              {
                "reference": "/Observation/ebfbad6e-6249-4f27-9287-c282c4e59e38",
                "type": "Observation"
              }
            ]
          },
          {
            "code": [
              {
                "text": "Fracture Exposition"
              }
            ],
            "detail": [
              {
                "reference": "/Observation/7d03df83-db71-4062-b174-b29b5812845c",
                "type": "Observation"
              }
            ]
          },
          {
            "code": [
              {
                "text": "Burn"
              }
            ],
            "detail": [
              {
                "reference": "/Observation/208fa7e5-4f22-4d8c-8f6e-91b3492ac623",
                "type": "Observation"
              }
            ]
          }
        ],
        "meta": {
          "versionId": "a50ccdf0-8854-4ea8-843b-0697fa7bc3ad",
          "lastUpdated": "2020-02-27T15:50:40.629637Z"
        },
        "subject": {
          "reference": "#237e56ff-46d0-441f-b9b9-b322eced95e5",
          "type": "Patient",
          "display": "Mario Rossi età 40"
        },
        "contained": [
          {
            "id": "237e56ff-46d0-441f-b9b9-b322eced95e5",
            "resourceType": "Patient",
            "name": [
              {
                "family": "Rossi",
                "given": [
                  "Mario"
                ]
              }
            ],
            "gender": "M"
          }
        ],
        "observations": []
      },
      {
        "_id": "5e57e550f9b0417610a44d2b",
        "id": "9d438151-c790-4c4d-8317-84057b771b93",
        "resourceType": "Condition",
        "clinicalStatus": {
          "coding": [
            {
              "system": "http://terminology.hl7.org/CodeSystem/condition-clinicalversion4.0.1",
              "code": "active",
              "display": "Active"
            }
          ]
        },
        "category": [
          {
            "coding": [
              {
                "system": "https://www.hl7.org/fhir/codesystem-condition-category.html",
                "code": "encounter-diagnosis",
                "display": "Encounter Diagnosis"
              }
            ]
          }
        ],
        "code": {
          "coding": [
            {
              "system": "https://www.hl7.org/fhir/codesystem-snomedct.html",
              "code": "417746004",
              "display": "Traumatic injury"
            }
          ],
          "text": "Physical Condition after intervention"
        },
        "encounter": {
          "reference": "/Encounter/adb1fbcf-5a24-40e7-8938-c0f2640ee717",
          "type": "Encounter",
          "display": "Encounter intervention"
        },
        "stage": [
          {
            "assessment": [
              {
                "reference": "/Observation/1ecf5c80-c6c7-4015-b385-d0b1500963ef",
                "type": "Observation",
                "display": "Total Iss Score: 17"
              }
            ],
            "type": {
              "coding": [
                {
                  "system": "http://www.snomed.org/",
                  "code": "273533008",
                  "display": "Injury severity score (assessment scale)"
                }
              ]
            }
          }
        ],
        "meta": {
          "versionId": "cd072ea4-5f17-47e8-965f-f261e154386e",
          "lastUpdated": "2020-02-27T15:50:40.647169Z"
        },
        "subject": {
          "reference": "#237e56ff-46d0-441f-b9b9-b322eced95e5",
          "type": "Patient",
          "display": "Mario Rossi età 40"
        },
        "contained": [
          {
            "id": "237e56ff-46d0-441f-b9b9-b322eced95e5",
            "resourceType": "Patient",
            "name": [
              {
                "family": "Rossi",
                "given": [
                  "Mario"
                ]
              }
            ],
            "gender": "M"
          }
        ],
        "observations": []
      },
      {
        "_id": "5e57e551f9b0417610a44d3c",
        "id": "ad241a68-418a-46f7-89ee-833716426953",
        "resourceType": "Condition",
        "code": {
          "coding": [
            {
              "system": "http://www.snomed.org/",
              "code": "417163006",
              "display": "Traumatic AND/OR non-traumatic injury (disorder)"
            },
            {
              "system": "http://www.snomed.org/",
              "code": "418399005",
              "display": "Motor vehicle accident"
            }
          ],
          "text": "Trauma Condition gestione pre ospedaliera"
        },
        "encounter": {
          "reference": "/Encounter/2fe5a6c6-7e53-40a2-8494-9364ed9248aa",
          "type": "Encounter",
          "display": "Encounter pre ospedalizzazione"
        },
        "onsetDateTime": "2019-10-13T03:44:52+02:00",
        "evidence": [
          {
            "code": [
              {
                "coding": [
                  {
                    "system": "http://www.snomed.org/",
                    "code": "416886008",
                    "display": "Closed wound"
                  }
                ],
                "text": "Type of accident chiuso"
              }
            ],
            "detail": [
              {
                "reference": "/Observation/2a7e5e92-ce95-4a5c-ad2b-d3f698d0d64f",
                "type": "Observation",
                "display": "Type of accident chiuso"
              }
            ]
          },
          {
            "code": [
              {
                "coding": [
                  {
                    "system": "http://www.snomed.org/",
                    "code": "229027002",
                    "display": "Dynamic"
                  }
                ],
                "text": "Major Trauma Criteria - Dynamic"
              }
            ]
          },
          {
            "code": [
              {
                "coding": [
                  {
                    "system": "http://www.snomed.org/",
                    "code": "1360005",
                    "display": "Physiological"
                  }
                ],
                "text": "Major Trauma Criteria - Physiological"
              }
            ]
          },
          {
            "code": [
              {
                "coding": [
                  {
                    "system": "http://www.snomed.org/",
                    "code": "311791003",
                    "display": "Information gathering (procedure)"
                  }
                ],
                "text": "Anamnesis evidence"
              }
            ],
            "detail": [
              {
                "reference": "/Procedure/cecfb59c-9117-4e8c-88d3-e23d12c77cf5",
                "type": "Procedure",
                "display": "Anamnesi procedure"
              }
            ]
          },
          {
            "code": [
              {
                "text": "Glasgow Coma Scale Total"
              }
            ],
            "detail": [
              {
                "reference": "/Observation/d19bb052-5d2d-4d2c-a24b-ff3fb86db4f2"
              }
            ]
          }
        ],
        "meta": {
          "versionId": "6d51f5be-3102-4842-bf44-03b368540168",
          "lastUpdated": "2020-02-27T15:50:40.808197Z"
        },
        "subject": {
          "reference": "#28a4f2a2-3237-4b3b-b3e0-f9dc10120f47",
          "type": "Patient",
          "display": "cortesi antonio età 68"
        },
        "contained": [
          {
            "id": "28a4f2a2-3237-4b3b-b3e0-f9dc10120f47",
            "resourceType": "Patient",
            "name": [
              {
                "family": "antonio",
                "given": [
                  "cortesi"
                ]
              }
            ],
            "gender": "M"
          }
        ],
        "observations": []
      },
      {
        "_id": "5e57e551f9b0417610a44d3d",
        "id": "a2129825-5a0d-4ba2-be35-9afb3091a09f",
        "resourceType": "Condition",
        "code": {
          "coding": [
            {
              "system": "http://www.snomed.org/",
              "code": "417163006",
              "display": "Traumatic AND/OR non-traumatic injury (disorder)"
            }
          ],
          "text": "Patient Initial Condition"
        },
        "encounter": {
          "reference": "/Encounter/d805d7a3-924d-406a-8842-5260f6cc0acb",
          "type": "Encounter",
          "display": "Encounter intervention"
        },
        "evidence": [
          {
            "code": [
              {
                "coding": [
                  {
                    "system": "http://loinc.org",
                    "code": "85353-1",
                    "display": "Vital Signs"
                  }
                ],
                "text": "Patient Initial Condition Vital Sign"
              }
            ],
            "detail": [
              {
                "reference": "/Observation/a03a865d-b8bf-428e-9fee-bfabe2442c61",
                "type": "Observation",
                "display": "Initial Vital Signs"
              }
            ]
          }
        ],
        "meta": {
          "versionId": "00f61c50-82c3-4a0d-9705-34b0f56e3a99",
          "lastUpdated": "2020-02-27T15:50:40.808339Z"
        },
        "subject": {
          "reference": "#28a4f2a2-3237-4b3b-b3e0-f9dc10120f47",
          "type": "Patient",
          "display": "cortesi antonio età 68"
        },
        "contained": [
          {
            "id": "28a4f2a2-3237-4b3b-b3e0-f9dc10120f47",
            "resourceType": "Patient",
            "name": [
              {
                "family": "antonio",
                "given": [
                  "cortesi"
                ]
              }
            ],
            "gender": "M"
          }
        ],
        "observations": []
      },
      {
        "_id": "5e57e551f9b0417610a44d3e",
        "id": "251a04f2-be5a-45b8-a790-23737ce7ecc5",
        "resourceType": "Condition",
        "clinicalStatus": {
          "coding": [
            {
              "system": "http://terminology.hl7.org/CodeSystem/condition-clinicalversion4.0.1",
              "code": "active",
              "display": "Active"
            }
          ]
        },
        "category": [
          {
            "coding": [
              {
                "system": "https://www.hl7.org/fhir/codesystem-condition-category.html",
                "code": "encounter-diagnosis",
                "display": "Encounter Diagnosis"
              }
            ]
          }
        ],
        "code": {
          "coding": [
            {
              "system": "https://www.hl7.org/fhir/codesystem-snomedct.html",
              "code": "417746004",
              "display": "Traumatic injury"
            }
          ],
          "text": "Physical Condition after intervention"
        },
        "encounter": {
          "reference": "/Encounter/d805d7a3-924d-406a-8842-5260f6cc0acb",
          "type": "Encounter",
          "display": "Encounter intervention"
        },
        "stage": [
          {
            "assessment": [
              {
                "reference": "/Observation/2274a5dc-5208-454f-8bd9-c1c2bda8b19b",
                "type": "Observation",
                "display": "Total Iss Score: 5"
              }
            ],
            "type": {
              "coding": [
                {
                  "system": "http://www.snomed.org/",
                  "code": "273533008",
                  "display": "Injury severity score (assessment scale)"
                }
              ]
            }
          }
        ],
        "meta": {
          "versionId": "f264dca7-5f17-4ed3-af72-86b3ed55fdd4",
          "lastUpdated": "2020-02-27T15:50:40.808672Z"
        },
        "subject": {
          "reference": "#28a4f2a2-3237-4b3b-b3e0-f9dc10120f47",
          "type": "Patient",
          "display": "cortesi antonio età 68"
        },
        "contained": [
          {
            "id": "28a4f2a2-3237-4b3b-b3e0-f9dc10120f47",
            "resourceType": "Patient",
            "name": [
              {
                "family": "antonio",
                "given": [
                  "cortesi"
                ]
              }
            ],
            "gender": "M"
          }
        ],
        "observations": []
      },
      {
        "_id": "5e57e551f9b0417610a44d57",
        "id": "38972846-f0d0-4f00-ade2-b4f6a70edb05",
        "resourceType": "Condition",
        "code": {
          "coding": [
            {
              "system": "http://www.snomed.org/",
              "code": "417163006",
              "display": "Traumatic AND/OR non-traumatic injury (disorder)"
            }
          ],
          "text": "Trauma Condition gestione pre ospedaliera"
        },
        "encounter": {
          "reference": "/Encounter/d15353d8-5002-43d2-8196-79492f116bf1",
          "type": "Encounter",
          "display": "Encounter pre ospedalizzazione"
        },
        "onsetDateTime": "2019-10-12T09:01:14+02:00",
        "evidence": [
          {
            "code": [
              {
                "coding": [
                  {
                    "system": "http://www.snomed.org/",
                    "code": "416886008",
                    "display": "Closed wound"
                  }
                ],
                "text": "Type of accident chiuso"
              }
            ],
            "detail": [
              {
                "reference": "/Observation/766023a9-d029-4e4b-b101-fa06e57cab99",
                "type": "Observation",
                "display": "Type of accident chiuso"
              }
            ]
          },
          {
            "code": [
              {
                "coding": [
                  {
                    "system": "http://www.snomed.org/",
                    "code": "229027002",
                    "display": "Dynamic"
                  }
                ],
                "text": "Major Trauma Criteria - Dynamic"
              }
            ]
          },
          {
            "code": [
              {
                "coding": [
                  {
                    "system": "http://www.snomed.org/",
                    "code": "311791003",
                    "display": "Information gathering (procedure)"
                  }
                ],
                "text": "Anamnesis evidence"
              }
            ],
            "detail": [
              {
                "reference": "/Procedure/51874f6b-d3a4-47cc-b9d7-432e18201055",
                "type": "Procedure",
                "display": "Anamnesi procedure"
              }
            ]
          },
          {
            "code": [
              {
                "text": "Anisocoria Observation"
              }
            ],
            "detail": [
              {
                "reference": "/Observation/f787a9a5-0bf4-465f-9d81-1c727389f847"
              }
            ]
          },
          {
            "code": [
              {
                "text": "Midriasi Observation"
              }
            ],
            "detail": [
              {
                "reference": "/Observation/abf8ea7f-e689-4bd6-a424-e390a24ae533"
              }
            ]
          },
          {
            "code": [
              {
                "text": "Motility Observation"
              }
            ],
            "detail": [
              {
                "reference": "/Observation/008c0f11-44c3-4f4e-be3f-0cf1a4cd2c19"
              }
            ]
          },
          {
            "code": [
              {
                "text": "Glasgow Coma Scale Total"
              }
            ],
            "detail": [
              {
                "reference": "/Observation/3eac267b-5bcc-48db-92b6-5e3f91b48413"
              }
            ]
          }
        ],
        "meta": {
          "versionId": "5b5b28b2-0789-4899-be76-0f48e7a3cd4c",
          "lastUpdated": "2020-02-27T15:50:40.935290Z"
        },
        "subject": {
          "reference": "#7e8f637d-7be8-419d-9828-3e1953f369ff",
          "type": "Patient",
          "display": "  età 3"
        },
        "contained": [
          {
            "id": "7e8f637d-7be8-419d-9828-3e1953f369ff",
            "resourceType": "Patient",
            "name": [
              {
                "family": "",
                "given": [
                  ""
                ]
              }
            ],
            "gender": "M"
          }
        ],
        "observations": []
      },
      {
        "_id": "5e57e551f9b0417610a44d58",
        "id": "d3ab46b8-7e62-4259-b49a-d3e5a1f74073",
        "resourceType": "Condition",
        "code": {
          "coding": [
            {
              "system": "http://www.snomed.org/",
              "code": "417163006",
              "display": "Traumatic AND/OR non-traumatic injury (disorder)"
            }
          ],
          "text": "Patient Initial Condition"
        },
        "encounter": {
          "reference": "/Encounter/58391688-4b32-430c-b82f-d8cb576f5a6f",
          "type": "Encounter",
          "display": "Encounter intervention"
        },
        "evidence": [
          {
            "code": [
              {
                "coding": [
                  {
                    "system": "http://loinc.org",
                    "code": "85353-1",
                    "display": "Vital Signs"
                  }
                ],
                "text": "Patient Initial Condition Vital Sign"
              }
            ],
            "detail": [
              {
                "reference": "/Observation/6c7cefc4-c5e5-467a-a298-7dd40e49e452",
                "type": "Observation",
                "display": "Initial Vital Signs"
              }
            ]
          },
          {
            "code": [
              {
                "text": "Glasgow Coma Scale Total"
              }
            ],
            "detail": [
              {
                "reference": "/Observation/40d7e343-72a2-448f-8c83-6fd692eeae4d",
                "type": "Observation"
              }
            ]
          },
          {
            "code": [
              {
                "text": "Patient Sedated"
              }
            ],
            "detail": [
              {
                "reference": "/Observation/a60464a3-26ba-4592-a2cb-dee4e7387c07",
                "type": "Observation"
              }
            ]
          },
          {
            "code": [
              {
                "text": "Airways"
              }
            ],
            "detail": [
              {
                "reference": "/Observation/281f8a1a-4231-49c9-abd7-d7e786303ae2",
                "type": "Observation"
              }
            ]
          },
          {
            "code": [
              {
                "text": "positiveInhalation"
              }
            ],
            "detail": [
              {
                "reference": "/Observation/7371ccaf-6c90-4b4a-ba81-f032aab355e7",
                "type": "Observation"
              }
            ]
          },
          {
            "code": [
              {
                "text": "Intubation"
              }
            ],
            "detail": [
              {
                "reference": "/Procedure/042e7ce7-dd1d-406c-8092-c780ed9b3fa9",
                "type": "Procedure"
              }
            ]
          },
          {
            "code": [
              {
                "text": "Chest Tube"
              }
            ],
            "detail": [
              {
                "reference": "/Observation/d20f968c-bd45-4f49-9d83-0c0597d35d6b",
                "type": "Observation"
              }
            ]
          },
          {
            "code": [
              {
                "text": "Hemorrhage"
              }
            ],
            "detail": [
              {
                "reference": "/Observation/91d96295-d5e7-4d1b-bb29-57ea87aead38",
                "type": "Observation"
              }
            ]
          },
          {
            "code": [
              {
                "text": "Limbs Fracture"
              }
            ],
            "detail": [
              {
                "reference": "/Observation/af060f4e-05ad-403c-9049-870d296f0f86",
                "type": "Observation"
              }
            ]
          },
          {
            "code": [
              {
                "text": "Fracture Exposition"
              }
            ],
            "detail": [
              {
                "reference": "/Observation/7cbf612d-f204-44b1-8948-4e0f15f25b0d",
                "type": "Observation"
              }
            ]
          },
          {
            "code": [
              {
                "text": "Burn"
              }
            ],
            "detail": [
              {
                "reference": "/Observation/96aeb7be-0e46-47b4-ab4a-9334359823a0",
                "type": "Observation"
              }
            ]
          }
        ],
        "meta": {
          "versionId": "201c8b8f-ab72-4f2b-ba65-c4eb28614d0f",
          "lastUpdated": "2020-02-27T15:50:40.935483Z"
        },
        "subject": {
          "reference": "#7e8f637d-7be8-419d-9828-3e1953f369ff",
          "type": "Patient",
          "display": "  età 3"
        },
        "contained": [
          {
            "id": "7e8f637d-7be8-419d-9828-3e1953f369ff",
            "resourceType": "Patient",
            "name": [
              {
                "family": "",
                "given": [
                  ""
                ]
              }
            ],
            "gender": "M"
          }
        ],
        "observations": []
      },
      {
        "_id": "5e57e551f9b0417610a44d59",
        "id": "4d013cd1-ed87-4d6f-b1be-2381ce5633a2",
        "resourceType": "Condition",
        "clinicalStatus": {
          "coding": [
            {
              "system": "http://terminology.hl7.org/CodeSystem/condition-clinicalversion4.0.1",
              "code": "active",
              "display": "Active"
            }
          ]
        },
        "category": [
          {
            "coding": [
              {
                "system": "https://www.hl7.org/fhir/codesystem-condition-category.html",
                "code": "encounter-diagnosis",
                "display": "Encounter Diagnosis"
              }
            ]
          }
        ],
        "code": {
          "coding": [
            {
              "system": "https://www.hl7.org/fhir/codesystem-snomedct.html",
              "code": "417746004",
              "display": "Traumatic injury"
            }
          ],
          "text": "Physical Condition after intervention"
        },
        "encounter": {
          "reference": "/Encounter/58391688-4b32-430c-b82f-d8cb576f5a6f",
          "type": "Encounter",
          "display": "Encounter intervention"
        },
        "stage": [
          {
            "assessment": [
              {
                "reference": "/Observation/4ab53990-6535-4bbd-b792-deec885af6fa",
                "type": "Observation",
                "display": "Total Iss Score: 2"
              }
            ],
            "type": {
              "coding": [
                {
                  "system": "http://www.snomed.org/",
                  "code": "273533008",
                  "display": "Injury severity score (assessment scale)"
                }
              ]
            }
          }
        ],
        "meta": {
          "versionId": "5f130725-2935-4ca6-a68e-4b14899690d4",
          "lastUpdated": "2020-02-27T15:50:40.935695Z"
        },
        "subject": {
          "reference": "#7e8f637d-7be8-419d-9828-3e1953f369ff",
          "type": "Patient",
          "display": "  età 3"
        },
        "contained": [
          {
            "id": "7e8f637d-7be8-419d-9828-3e1953f369ff",
            "resourceType": "Patient",
            "name": [
              {
                "family": "",
                "given": [
                  ""
                ]
              }
            ],
            "gender": "M"
          }
        ],
        "observations": []
      },
      {
        "_id": "5e57e6314580c5628bdb1836",
        "id": "2de5fdd6-4f3c-4d60-8f2b-a508ea94b18c",
        "resourceType": "Condition",
        "code": {
          "coding": [
            {
              "system": "http://www.snomed.org/",
              "code": "417163006",
              "display": "Traumatic AND/OR non-traumatic injury (disorder)"
            },
            {
              "system": "http://www.snomed.org/",
              "code": "418399005",
              "display": "Motor vehicle accident"
            }
          ],
          "text": "Trauma Condition gestione pre ospedaliera"
        },
        "encounter": {
          "reference": "/Encounter/dff934d0-d45e-4562-b6e9-ec1ca281b2f9",
          "type": "Encounter",
          "display": "Encounter pre ospedalizzazione"
        },
        "onsetDateTime": "2020-02-04T09:57:45+01:00",
        "evidence": [
          {
            "code": [
              {
                "coding": [
                  {
                    "system": "http://www.snomed.org/",
                    "code": "416886008",
                    "display": "Closed wound"
                  }
                ],
                "text": "Type of accident chiuso"
              }
            ],
            "detail": [
              {
                "reference": "/Observation/adecdc30-0557-4c6a-89fe-f0d1f8c92fb3",
                "type": "Observation",
                "display": "Type of accident chiuso"
              }
            ]
          },
          {
            "code": [
              {
                "coding": [
                  {
                    "system": "http://www.snomed.org/",
                    "code": "229027002",
                    "display": "Dynamic"
                  }
                ],
                "text": "Major Trauma Criteria - Dynamic"
              }
            ]
          },
          {
            "code": [
              {
                "coding": [
                  {
                    "system": "http://www.snomed.org/",
                    "code": "36298004",
                    "display": "Anatomical "
                  }
                ],
                "text": "Major Trauma Criteria - Anatomical"
              }
            ]
          },
          {
            "code": [
              {
                "coding": [
                  {
                    "system": "http://www.snomed.org/",
                    "code": "1360005",
                    "display": "Physiological"
                  }
                ],
                "text": "Major Trauma Criteria - Physiological"
              }
            ]
          },
          {
            "code": [
              {
                "coding": [
                  {
                    "system": "http://www.snomed.org/",
                    "code": "311791003",
                    "display": "Information gathering (procedure)"
                  }
                ],
                "text": "Anamnesis evidence"
              }
            ],
            "detail": [
              {
                "reference": "/Procedure/7e1622a8-3f4b-4dda-b3f5-b04326eb0df6",
                "type": "Procedure",
                "display": "Anamnesi procedure"
              }
            ]
          },
          {
            "detail": [
              {
                "reference": "/Procedure/4ea5aced-e873-452d-b003-375940e777ee"
              }
            ]
          },
          {
            "detail": [
              {
                "reference": "/Procedure/cc1b1128-a384-4017-8464-34a258f46f5b"
              }
            ]
          },
          {
            "detail": [
              {
                "reference": "/Procedure/3d8ea174-26ca-44a4-b6f8-c54a4920704a"
              }
            ]
          },
          {
            "code": [
              {
                "text": "Anisocoria Observation"
              }
            ],
            "detail": [
              {
                "reference": "/Observation/82bb0c53-6993-4397-a00a-ddf48bc2fc9e"
              }
            ]
          },
          {
            "code": [
              {
                "text": "Midriasi Observation"
              }
            ],
            "detail": [
              {
                "reference": "/Observation/fca71d6b-d836-46bb-bbab-c00ee0874dc9"
              }
            ]
          },
          {
            "code": [
              {
                "text": "Motility Observation"
              }
            ],
            "detail": [
              {
                "reference": "/Observation/236a428d-af20-46d4-a3e0-e197aab2fcbf"
              }
            ]
          },
          {
            "code": [
              {
                "text": "Glasgow Coma Scale Total"
              }
            ],
            "detail": [
              {
                "reference": "/Observation/fed0531f-67d7-4722-aa79-17a5a97444a6"
              }
            ]
          },
          {
            "code": [
              {
                "text": "Worst Blood Pressure Observation"
              }
            ],
            "detail": [
              {
                "reference": "/Observation/b7c27ea9-ffa4-44fd-b3b2-fc15ac0dff2a"
              }
            ]
          },
          {
            "code": [
              {
                "text": "Worst Respiratory Rate Observation"
              }
            ],
            "detail": [
              {
                "reference": "/Observation/e5055aff-d2d7-4785-a4e2-b0fbf40726dc"
              }
            ]
          }
        ],
        "meta": {
          "versionId": "d556d245-196c-4998-9254-b8f67286a7cc",
          "lastUpdated": "2020-02-27T15:54:25.089190Z"
        },
        "subject": {
          "reference": "#87cc8c6c-90ee-490e-84cd-aa738b9fa813",
          "type": "Patient",
          "display": "Mario Rossi età 40"
        },
        "contained": [
          {
            "id": "87cc8c6c-90ee-490e-84cd-aa738b9fa813",
            "resourceType": "Patient",
            "name": [
              {
                "family": "Rossi",
                "given": [
                  "Mario"
                ]
              }
            ],
            "gender": "M"
          }
        ],
        "observations": []
      },
      {
        "_id": "5e57e6314580c5628bdb1837",
        "id": "810bc2aa-47d0-471a-bcd9-5ac41e140f6a",
        "resourceType": "Condition",
        "code": {
          "coding": [
            {
              "system": "http://www.snomed.org/",
              "code": "417163006",
              "display": "Traumatic AND/OR non-traumatic injury (disorder)"
            }
          ],
          "text": "Patient Initial Condition"
        },
        "encounter": {
          "reference": "/Encounter/481d7f8c-05e5-4832-9564-2c463d0a5bb8",
          "type": "Encounter",
          "display": "Encounter intervention"
        },
        "evidence": [
          {
            "code": [
              {
                "coding": [
                  {
                    "system": "http://loinc.org",
                    "code": "85353-1",
                    "display": "Vital Signs"
                  }
                ],
                "text": "Patient Initial Condition Vital Sign"
              }
            ],
            "detail": [
              {
                "reference": "/Observation/4ce7fcce-22c8-4df9-a752-56a5c6f2b48d",
                "type": "Observation",
                "display": "Initial Vital Signs"
              }
            ]
          },
          {
            "code": [
              {
                "text": "Glasgow Coma Scale Total"
              }
            ],
            "detail": [
              {
                "reference": "/Observation/f440c2a7-547e-4ad3-ab4b-75e52a8393a5",
                "type": "Observation"
              }
            ]
          },
          {
            "code": [
              {
                "text": "Patient Sedated"
              }
            ],
            "detail": [
              {
                "reference": "/Observation/4fd61fe3-ecff-4542-a1cf-cc0152ca5065",
                "type": "Observation"
              }
            ]
          },
          {
            "code": [
              {
                "text": "Pupils"
              }
            ],
            "detail": [
              {
                "reference": "/Observation/6c2a3918-6527-4cf0-82aa-0b85faeb3023",
                "type": "Observation"
              }
            ]
          },
          {
            "code": [
              {
                "text": "Airways"
              }
            ],
            "detail": [
              {
                "reference": "/Observation/fbb1a5cf-2565-4f0f-a27a-230b1d2b4b6c",
                "type": "Observation"
              }
            ]
          },
          {
            "code": [
              {
                "text": "positiveInhalation"
              }
            ],
            "detail": [
              {
                "reference": "/Observation/d9ba69cc-849d-48da-a6ab-1e4891929242",
                "type": "Observation"
              }
            ]
          },
          {
            "code": [
              {
                "text": "Intubation"
              }
            ],
            "detail": [
              {
                "reference": "/Procedure/a417d9bb-65ec-48cb-93e3-b6105ac1b7eb",
                "type": "Procedure"
              }
            ]
          },
          {
            "code": [
              {
                "text": "Chest Tube"
              }
            ],
            "detail": [
              {
                "reference": "/Observation/0e9594c2-6818-466f-9b5f-c08497b9cab4",
                "type": "Observation"
              }
            ]
          },
          {
            "code": [
              {
                "text": "Hemorrhage"
              }
            ],
            "detail": [
              {
                "reference": "/Observation/5620528c-3a76-4e02-995a-c4eaf9da8d98",
                "type": "Observation"
              }
            ]
          },
          {
            "code": [
              {
                "text": "Limbs Fracture"
              }
            ],
            "detail": [
              {
                "reference": "/Observation/46a2245b-3e1d-42d7-a3b2-e1b3324d2a2c",
                "type": "Observation"
              }
            ]
          },
          {
            "code": [
              {
                "text": "Fracture Exposition"
              }
            ],
            "detail": [
              {
                "reference": "/Observation/08f804ea-de80-411f-9154-468761f670e1",
                "type": "Observation"
              }
            ]
          },
          {
            "code": [
              {
                "text": "Burn"
              }
            ],
            "detail": [
              {
                "reference": "/Observation/0f89141e-087a-4e9e-8cf3-5d44d9948ac4",
                "type": "Observation"
              }
            ]
          }
        ],
        "meta": {
          "versionId": "82b11ee6-b70c-40e7-93fe-7ab1fbc51b1e",
          "lastUpdated": "2020-02-27T15:54:25.093795Z"
        },
        "subject": {
          "reference": "#87cc8c6c-90ee-490e-84cd-aa738b9fa813",
          "type": "Patient",
          "display": "Mario Rossi età 40"
        },
        "contained": [
          {
            "id": "87cc8c6c-90ee-490e-84cd-aa738b9fa813",
            "resourceType": "Patient",
            "name": [
              {
                "family": "Rossi",
                "given": [
                  "Mario"
                ]
              }
            ],
            "gender": "M"
          }
        ],
        "observations": []
      },
      {
        "_id": "5e57e6314580c5628bdb1838",
        "id": "a8a667c1-fb89-448d-9bd9-ccb61d721877",
        "resourceType": "Condition",
        "clinicalStatus": {
          "coding": [
            {
              "system": "http://terminology.hl7.org/CodeSystem/condition-clinicalversion4.0.1",
              "code": "active",
              "display": "Active"
            }
          ]
        },
        "category": [
          {
            "coding": [
              {
                "system": "https://www.hl7.org/fhir/codesystem-condition-category.html",
                "code": "encounter-diagnosis",
                "display": "Encounter Diagnosis"
              }
            ]
          }
        ],
        "code": {
          "coding": [
            {
              "system": "https://www.hl7.org/fhir/codesystem-snomedct.html",
              "code": "417746004",
              "display": "Traumatic injury"
            }
          ],
          "text": "Physical Condition after intervention"
        },
        "encounter": {
          "reference": "/Encounter/481d7f8c-05e5-4832-9564-2c463d0a5bb8",
          "type": "Encounter",
          "display": "Encounter intervention"
        },
        "stage": [
          {
            "assessment": [
              {
                "reference": "/Observation/9ac8e987-30f8-4c63-854c-fa202fdf17be",
                "type": "Observation",
                "display": "Total Iss Score: 17"
              }
            ],
            "type": {
              "coding": [
                {
                  "system": "http://www.snomed.org/",
                  "code": "273533008",
                  "display": "Injury severity score (assessment scale)"
                }
              ]
            }
          }
        ],
        "meta": {
          "versionId": "9bcc8e34-d8e6-4bd7-9615-1289889f6a31",
          "lastUpdated": "2020-02-27T15:54:25.109322Z"
        },
        "subject": {
          "reference": "#87cc8c6c-90ee-490e-84cd-aa738b9fa813",
          "type": "Patient",
          "display": "Mario Rossi età 40"
        },
        "contained": [
          {
            "id": "87cc8c6c-90ee-490e-84cd-aa738b9fa813",
            "resourceType": "Patient",
            "name": [
              {
                "family": "Rossi",
                "given": [
                  "Mario"
                ]
              }
            ],
            "gender": "M"
          }
        ],
        "observations": []
      },
      {
        "_id": "5e57e6314580c5628bdb1849",
        "id": "e1e79739-0611-48d7-81c4-faaf636461c5",
        "resourceType": "Condition",
        "code": {
          "coding": [
            {
              "system": "http://www.snomed.org/",
              "code": "417163006",
              "display": "Traumatic AND/OR non-traumatic injury (disorder)"
            },
            {
              "system": "http://www.snomed.org/",
              "code": "418399005",
              "display": "Motor vehicle accident"
            }
          ],
          "text": "Trauma Condition gestione pre ospedaliera"
        },
        "encounter": {
          "reference": "/Encounter/e629820a-9473-4ec8-a961-d438f344d9ac",
          "type": "Encounter",
          "display": "Encounter pre ospedalizzazione"
        },
        "onsetDateTime": "2019-10-13T03:44:52+02:00",
        "evidence": [
          {
            "code": [
              {
                "coding": [
                  {
                    "system": "http://www.snomed.org/",
                    "code": "416886008",
                    "display": "Closed wound"
                  }
                ],
                "text": "Type of accident chiuso"
              }
            ],
            "detail": [
              {
                "reference": "/Observation/7ba4ff9e-8090-4b25-b0a2-b596c6bd5ff1",
                "type": "Observation",
                "display": "Type of accident chiuso"
              }
            ]
          },
          {
            "code": [
              {
                "coding": [
                  {
                    "system": "http://www.snomed.org/",
                    "code": "229027002",
                    "display": "Dynamic"
                  }
                ],
                "text": "Major Trauma Criteria - Dynamic"
              }
            ]
          },
          {
            "code": [
              {
                "coding": [
                  {
                    "system": "http://www.snomed.org/",
                    "code": "1360005",
                    "display": "Physiological"
                  }
                ],
                "text": "Major Trauma Criteria - Physiological"
              }
            ]
          },
          {
            "code": [
              {
                "coding": [
                  {
                    "system": "http://www.snomed.org/",
                    "code": "311791003",
                    "display": "Information gathering (procedure)"
                  }
                ],
                "text": "Anamnesis evidence"
              }
            ],
            "detail": [
              {
                "reference": "/Procedure/a72284e9-8fca-4a3f-a3fd-00db4e45498c",
                "type": "Procedure",
                "display": "Anamnesi procedure"
              }
            ]
          },
          {
            "code": [
              {
                "text": "Glasgow Coma Scale Total"
              }
            ],
            "detail": [
              {
                "reference": "/Observation/e5f825cf-02fe-4dfb-a065-c3fe8650df0e"
              }
            ]
          }
        ],
        "meta": {
          "versionId": "cd48ed44-3e9c-4a2d-b28e-3b4fb96a3592",
          "lastUpdated": "2020-02-27T15:54:25.247972Z"
        },
        "subject": {
          "reference": "#74d51f55-b738-4a6c-a6bf-95c9df6b5e16",
          "type": "Patient",
          "display": "cortesi antonio età 68"
        },
        "contained": [
          {
            "id": "74d51f55-b738-4a6c-a6bf-95c9df6b5e16",
            "resourceType": "Patient",
            "name": [
              {
                "family": "antonio",
                "given": [
                  "cortesi"
                ]
              }
            ],
            "gender": "M"
          }
        ],
        "observations": []
      },
      {
        "_id": "5e57e6314580c5628bdb184a",
        "id": "3b39296d-961b-49c9-8bbc-9834b00318a0",
        "resourceType": "Condition",
        "code": {
          "coding": [
            {
              "system": "http://www.snomed.org/",
              "code": "417163006",
              "display": "Traumatic AND/OR non-traumatic injury (disorder)"
            }
          ],
          "text": "Patient Initial Condition"
        },
        "encounter": {
          "reference": "/Encounter/d1d5c194-ceda-4776-b5fa-8f063c93d9f9",
          "type": "Encounter",
          "display": "Encounter intervention"
        },
        "evidence": [
          {
            "code": [
              {
                "coding": [
                  {
                    "system": "http://loinc.org",
                    "code": "85353-1",
                    "display": "Vital Signs"
                  }
                ],
                "text": "Patient Initial Condition Vital Sign"
              }
            ],
            "detail": [
              {
                "reference": "/Observation/93753e16-852a-47c0-a984-8e400abafe81",
                "type": "Observation",
                "display": "Initial Vital Signs"
              }
            ]
          }
        ],
        "meta": {
          "versionId": "64776709-e3d4-48c2-9b75-ee84f02066d7",
          "lastUpdated": "2020-02-27T15:54:25.248122Z"
        },
        "subject": {
          "reference": "#74d51f55-b738-4a6c-a6bf-95c9df6b5e16",
          "type": "Patient",
          "display": "cortesi antonio età 68"
        },
        "contained": [
          {
            "id": "74d51f55-b738-4a6c-a6bf-95c9df6b5e16",
            "resourceType": "Patient",
            "name": [
              {
                "family": "antonio",
                "given": [
                  "cortesi"
                ]
              }
            ],
            "gender": "M"
          }
        ],
        "observations": []
      },
      {
        "_id": "5e57e6314580c5628bdb184b",
        "id": "a1ec67e9-ccb1-4ecf-b166-be5b6284a985",
        "resourceType": "Condition",
        "clinicalStatus": {
          "coding": [
            {
              "system": "http://terminology.hl7.org/CodeSystem/condition-clinicalversion4.0.1",
              "code": "active",
              "display": "Active"
            }
          ]
        },
        "category": [
          {
            "coding": [
              {
                "system": "https://www.hl7.org/fhir/codesystem-condition-category.html",
                "code": "encounter-diagnosis",
                "display": "Encounter Diagnosis"
              }
            ]
          }
        ],
        "code": {
          "coding": [
            {
              "system": "https://www.hl7.org/fhir/codesystem-snomedct.html",
              "code": "417746004",
              "display": "Traumatic injury"
            }
          ],
          "text": "Physical Condition after intervention"
        },
        "encounter": {
          "reference": "/Encounter/d1d5c194-ceda-4776-b5fa-8f063c93d9f9",
          "type": "Encounter",
          "display": "Encounter intervention"
        },
        "stage": [
          {
            "assessment": [
              {
                "reference": "/Observation/ba452486-bd22-47a1-aa09-ee5afb1cb5e7",
                "type": "Observation",
                "display": "Total Iss Score: 5"
              }
            ],
            "type": {
              "coding": [
                {
                  "system": "http://www.snomed.org/",
                  "code": "273533008",
                  "display": "Injury severity score (assessment scale)"
                }
              ]
            }
          }
        ],
        "meta": {
          "versionId": "ee83a971-4412-4b08-b6d5-1defdb7754eb",
          "lastUpdated": "2020-02-27T15:54:25.248365Z"
        },
        "subject": {
          "reference": "#74d51f55-b738-4a6c-a6bf-95c9df6b5e16",
          "type": "Patient",
          "display": "cortesi antonio età 68"
        },
        "contained": [
          {
            "id": "74d51f55-b738-4a6c-a6bf-95c9df6b5e16",
            "resourceType": "Patient",
            "name": [
              {
                "family": "antonio",
                "given": [
                  "cortesi"
                ]
              }
            ],
            "gender": "M"
          }
        ],
        "observations": []
      },
      {
        "_id": "5e57e6314580c5628bdb1864",
        "id": "5fd75c83-4537-4516-ae1b-300c8e367e40",
        "resourceType": "Condition",
        "code": {
          "coding": [
            {
              "system": "http://www.snomed.org/",
              "code": "417163006",
              "display": "Traumatic AND/OR non-traumatic injury (disorder)"
            }
          ],
          "text": "Trauma Condition gestione pre ospedaliera"
        },
        "encounter": {
          "reference": "/Encounter/d2e14931-596d-43c6-93d6-2908808478cd",
          "type": "Encounter",
          "display": "Encounter pre ospedalizzazione"
        },
        "onsetDateTime": "2019-10-12T09:01:14+02:00",
        "evidence": [
          {
            "code": [
              {
                "coding": [
                  {
                    "system": "http://www.snomed.org/",
                    "code": "416886008",
                    "display": "Closed wound"
                  }
                ],
                "text": "Type of accident chiuso"
              }
            ],
            "detail": [
              {
                "reference": "/Observation/ea826ed1-a403-482f-bce7-d66f752217e1",
                "type": "Observation",
                "display": "Type of accident chiuso"
              }
            ]
          },
          {
            "code": [
              {
                "coding": [
                  {
                    "system": "http://www.snomed.org/",
                    "code": "229027002",
                    "display": "Dynamic"
                  }
                ],
                "text": "Major Trauma Criteria - Dynamic"
              }
            ]
          },
          {
            "code": [
              {
                "coding": [
                  {
                    "system": "http://www.snomed.org/",
                    "code": "311791003",
                    "display": "Information gathering (procedure)"
                  }
                ],
                "text": "Anamnesis evidence"
              }
            ],
            "detail": [
              {
                "reference": "/Procedure/070649a0-d58d-4092-9d40-eb414f79de32",
                "type": "Procedure",
                "display": "Anamnesi procedure"
              }
            ]
          },
          {
            "code": [
              {
                "text": "Anisocoria Observation"
              }
            ],
            "detail": [
              {
                "reference": "/Observation/75f7a007-30e4-4aa1-92de-2871cfa3e5d6"
              }
            ]
          },
          {
            "code": [
              {
                "text": "Midriasi Observation"
              }
            ],
            "detail": [
              {
                "reference": "/Observation/0cc9e672-768d-49c0-a93d-d095cf4e8449"
              }
            ]
          },
          {
            "code": [
              {
                "text": "Motility Observation"
              }
            ],
            "detail": [
              {
                "reference": "/Observation/dbcc5f38-a383-4c2c-acf5-551fd270f487"
              }
            ]
          },
          {
            "code": [
              {
                "text": "Glasgow Coma Scale Total"
              }
            ],
            "detail": [
              {
                "reference": "/Observation/d660537f-c5d5-451c-91fc-726a1845de5e"
              }
            ]
          }
        ],
        "meta": {
          "versionId": "26661bdc-0302-4a27-9ce6-a640be954552",
          "lastUpdated": "2020-02-27T15:54:25.380142Z"
        },
        "subject": {
          "reference": "#5e6d1d2b-01ec-467f-9226-f924c4bab09a",
          "type": "Patient",
          "display": "  età 3"
        },
        "contained": [
          {
            "id": "5e6d1d2b-01ec-467f-9226-f924c4bab09a",
            "resourceType": "Patient",
            "name": [
              {
                "family": "",
                "given": [
                  ""
                ]
              }
            ],
            "gender": "M"
          }
        ],
        "observations": []
      },
      {
        "_id": "5e57e6314580c5628bdb1865",
        "id": "d009b952-b4a1-40aa-b1d9-0f05078a149d",
        "resourceType": "Condition",
        "code": {
          "coding": [
            {
              "system": "http://www.snomed.org/",
              "code": "417163006",
              "display": "Traumatic AND/OR non-traumatic injury (disorder)"
            }
          ],
          "text": "Patient Initial Condition"
        },
        "encounter": {
          "reference": "/Encounter/f7b3ea1a-d881-42fe-a734-7eaf4c290670",
          "type": "Encounter",
          "display": "Encounter intervention"
        },
        "evidence": [
          {
            "code": [
              {
                "coding": [
                  {
                    "system": "http://loinc.org",
                    "code": "85353-1",
                    "display": "Vital Signs"
                  }
                ],
                "text": "Patient Initial Condition Vital Sign"
              }
            ],
            "detail": [
              {
                "reference": "/Observation/47a049e0-fe19-4c78-969e-255f25c032e1",
                "type": "Observation",
                "display": "Initial Vital Signs"
              }
            ]
          },
          {
            "code": [
              {
                "text": "Glasgow Coma Scale Total"
              }
            ],
            "detail": [
              {
                "reference": "/Observation/bf247ba2-caf9-4e35-9940-2ecba84d0a42",
                "type": "Observation"
              }
            ]
          },
          {
            "code": [
              {
                "text": "Patient Sedated"
              }
            ],
            "detail": [
              {
                "reference": "/Observation/5dd9538a-88de-40c3-8a4b-2d39311dfb0f",
                "type": "Observation"
              }
            ]
          },
          {
            "code": [
              {
                "text": "Airways"
              }
            ],
            "detail": [
              {
                "reference": "/Observation/13514ec4-e62b-4681-84b1-e60b8736120d",
                "type": "Observation"
              }
            ]
          },
          {
            "code": [
              {
                "text": "positiveInhalation"
              }
            ],
            "detail": [
              {
                "reference": "/Observation/9549bc1f-2303-4654-aa8f-e62b20fb23a8",
                "type": "Observation"
              }
            ]
          },
          {
            "code": [
              {
                "text": "Intubation"
              }
            ],
            "detail": [
              {
                "reference": "/Procedure/49ebf854-7d95-4201-bf66-7b96a2ce1a7d",
                "type": "Procedure"
              }
            ]
          },
          {
            "code": [
              {
                "text": "Chest Tube"
              }
            ],
            "detail": [
              {
                "reference": "/Observation/79ec8e13-1dba-4d93-8327-32a0a85a8897",
                "type": "Observation"
              }
            ]
          },
          {
            "code": [
              {
                "text": "Hemorrhage"
              }
            ],
            "detail": [
              {
                "reference": "/Observation/dd264136-c0a4-4c41-bec4-a3ca6069db1f",
                "type": "Observation"
              }
            ]
          },
          {
            "code": [
              {
                "text": "Limbs Fracture"
              }
            ],
            "detail": [
              {
                "reference": "/Observation/b9fe9b51-ab5a-43ee-9599-35967f18a860",
                "type": "Observation"
              }
            ]
          },
          {
            "code": [
              {
                "text": "Fracture Exposition"
              }
            ],
            "detail": [
              {
                "reference": "/Observation/4edef926-0d23-41ca-91a4-11fb90853fc0",
                "type": "Observation"
              }
            ]
          },
          {
            "code": [
              {
                "text": "Burn"
              }
            ],
            "detail": [
              {
                "reference": "/Observation/d2172d42-57ee-4948-9d9c-9abca1713c3d",
                "type": "Observation"
              }
            ]
          }
        ],
        "meta": {
          "versionId": "27f3ed6d-d122-4440-9f10-a49fe8c89dbb",
          "lastUpdated": "2020-02-27T15:54:25.380335Z"
        },
        "subject": {
          "reference": "#5e6d1d2b-01ec-467f-9226-f924c4bab09a",
          "type": "Patient",
          "display": "  età 3"
        },
        "contained": [
          {
            "id": "5e6d1d2b-01ec-467f-9226-f924c4bab09a",
            "resourceType": "Patient",
            "name": [
              {
                "family": "",
                "given": [
                  ""
                ]
              }
            ],
            "gender": "M"
          }
        ],
        "observations": []
      },
      {
        "_id": "5e57e6314580c5628bdb1866",
        "id": "4787b5a7-9866-4735-b6c6-17474d858b8b",
        "resourceType": "Condition",
        "clinicalStatus": {
          "coding": [
            {
              "system": "http://terminology.hl7.org/CodeSystem/condition-clinicalversion4.0.1",
              "code": "active",
              "display": "Active"
            }
          ]
        },
        "category": [
          {
            "coding": [
              {
                "system": "https://www.hl7.org/fhir/codesystem-condition-category.html",
                "code": "encounter-diagnosis",
                "display": "Encounter Diagnosis"
              }
            ]
          }
        ],
        "code": {
          "coding": [
            {
              "system": "https://www.hl7.org/fhir/codesystem-snomedct.html",
              "code": "417746004",
              "display": "Traumatic injury"
            }
          ],
          "text": "Physical Condition after intervention"
        },
        "encounter": {
          "reference": "/Encounter/f7b3ea1a-d881-42fe-a734-7eaf4c290670",
          "type": "Encounter",
          "display": "Encounter intervention"
        },
        "stage": [
          {
            "assessment": [
              {
                "reference": "/Observation/6a7fff89-d347-4d15-9ad3-dc526cc78ed6",
                "type": "Observation",
                "display": "Total Iss Score: 2"
              }
            ],
            "type": {
              "coding": [
                {
                  "system": "http://www.snomed.org/",
                  "code": "273533008",
                  "display": "Injury severity score (assessment scale)"
                }
              ]
            }
          }
        ],
        "meta": {
          "versionId": "54545414-e790-47a4-8689-e8165a85501c",
          "lastUpdated": "2020-02-27T15:54:25.380540Z"
        },
        "subject": {
          "reference": "#5e6d1d2b-01ec-467f-9226-f924c4bab09a",
          "type": "Patient",
          "display": "  età 3"
        },
        "contained": [
          {
            "id": "5e6d1d2b-01ec-467f-9226-f924c4bab09a",
            "resourceType": "Patient",
            "name": [
              {
                "family": "",
                "given": [
                  ""
                ]
              }
            ],
            "gender": "M"
          }
        ],
        "observations": []
      }
    ],
    "id": 0,
    "ns": "fhir_db_test.conditions"
  },
  "ok": 1.0
}
