{
  "id": "7fb91915-e122-4903-a72f-cb8fa6665d2c",
  "meta": {
    "versionId": "b83e2d40-8831-4f14-8cd4-e69b455fac5f",
    "lastUpdated": "2020-02-13T10:04:39.036Z"
  },
  "contained": [
    {
      "id": "39ad729e-95ec-4027-a197-6a36f0ce50d2",
      "resourceType": "Practitioner",
      "identifier": [
        {
          "value": "vanni.agnoletti"
        },
        {
          "value": "Vanni Agnoletti"
        }
      ],
      "active": true
    },
    {
      "id": "db33d317-2907-4a4b-a741-f6dd6c218a8c",
      "resourceType": "Practitioner",
      "identifier": [
        {
          "value": "vanni.agnoletti"
        },
        {
          "value": "Vanni Agnoletti"
        }
      ],
      "active": true
    },
    {
      "id": "2",
      "resourceType": "Procedure",
      "location": {
        "display": "Shock-Room"
      },
      "status": "completed",
      "code": {
        "text": "room-in"
      },
      "encounter": {
        "reference": "#130f1db9-abd6-497c-b8e1-3a5cd8702c37",
        "type": "Encounter",
        "display": "Encounter intervention"
      },
      "performedDateTime": "2020-02-04T02:57:59Z"
    },
    {
      "id": "3",
      "resourceType": "MedicationAdministration",
      "medicationCodeableConcept": {
        "text": "crystalloid"
      },
      "context": {
        "reference": "#130f1db9-abd6-497c-b8e1-3a5cd8702c37",
        "type": "Encounter",
        "display": "Encounter intervention"
      },
      "note": [
        {
          "text": "Cristalloidi"
        }
      ],
      "dosage": {
        "method": {
          "text": "one-shot"
        },
        "dose": {
          "value": 500,
          "unit": "ml"
        }
      }
    },
    {
      "id": "4",
      "resourceType": "MedicationAdministration",
      "medicationCodeableConcept": {
        "text": "hypertonic"
      },
      "context": {
        "reference": "#130f1db9-abd6-497c-b8e1-3a5cd8702c37",
        "type": "Encounter",
        "display": "Encounter intervention"
      },
      "note": [
        {
          "text": "Soluzione Ipertonica"
        }
      ],
      "dosage": {
        "method": {
          "text": "one-shot"
        },
        "dose": {
          "value": 250,
          "unit": "ml"
        }
      }
    },
    {
      "id": "5",
      "resourceType": "MedicationAdministration",
      "medicationCodeableConcept": {
        "text": "mtp"
      },
      "context": {
        "reference": "#130f1db9-abd6-497c-b8e1-3a5cd8702c37",
        "type": "Encounter",
        "display": "Encounter intervention"
      },
      "note": [
        {
          "text": "Protocollo Trasfusione Massiva (P.T.M.)"
        }
      ],
      "dosage": {
        "method": {
          "text": "blood-protocol"
        }
      }
    },
    {
      "id": "6",
      "resourceType": "MedicationAdministration",
      "medicationCodeableConcept": {
        "text": "fresh-frozen-plasma"
      },
      "context": {
        "reference": "#130f1db9-abd6-497c-b8e1-3a5cd8702c37",
        "type": "Encounter",
        "display": "Encounter intervention"
      },
      "note": [
        {
          "text": "Plasma Fresco Congelato"
        }
      ],
      "dosage": {
        "text": "",
        "method": {
          "text": "one-shot"
        },
        "dose": {
          "value": 1,
          "unit": "UI"
        }
      }
    },
    {
      "id": "7",
      "resourceType": "DiagnosticReport",
      "status": "final",
      "code": {
        "text": "echofast"
      },
      "encounter": {
        "reference": "#com.oracolo.fhir.model.domain.Encounter@4aab5454",
        "type": "Encounter",
        "display": "Encounter intervention"
      },
      "effectiveDateTime": "2020-02-04 14:58:22",
      "conclusion": "Ecografia (Echofast)"
    },
    {
      "id": "8",
      "resourceType": "DiagnosticReport",
      "status": "final",
      "code": {
        "text": "abdomen-rx"
      },
      "encounter": {
        "reference": "#com.oracolo.fhir.model.domain.Encounter@4aab5454",
        "type": "Encounter",
        "display": "Encounter intervention"
      },
      "effectiveDateTime": "2020-02-04 14:58:23",
      "conclusion": "RX Bacino"
    },
    {
      "id": "9",
      "resourceType": "MedicationAdministration",
      "medicationCodeableConcept": {
        "text": "ketamine"
      },
      "context": {
        "reference": "#130f1db9-abd6-497c-b8e1-3a5cd8702c37",
        "type": "Encounter",
        "display": "Encounter intervention"
      },
      "note": [
        {
          "text": "Ketamina"
        }
      ],
      "dosage": {
        "method": {
          "text": "one-shot"
        },
        "dose": {
          "value": 25,
          "unit": "mg"
        }
      }
    },
    {
      "id": "10",
      "resourceType": "MedicationAdministration",
      "medicationCodeableConcept": {
        "text": "tranex"
      },
      "context": {
        "reference": "#130f1db9-abd6-497c-b8e1-3a5cd8702c37",
        "type": "Encounter",
        "display": "Encounter intervention"
      },
      "note": [
        {
          "text": "Acido Tranexamico"
        }
      ],
      "dosage": {
        "method": {
          "text": "one-shot"
        },
        "dose": {
          "value": 1,
          "unit": "g"
        }
      }
    },
    {
      "id": "11",
      "resourceType": "MedicationAdministration",
      "medicationCodeableConcept": {
        "text": "antibiotic-prophylaxis"
      },
      "context": {
        "reference": "#130f1db9-abd6-497c-b8e1-3a5cd8702c37",
        "type": "Encounter",
        "display": "Encounter intervention"
      },
      "note": [
        {
          "text": "Profilassi ABT"
        }
      ],
      "dosage": {
        "method": {
          "text": "drug-protocol"
        }
      }
    },
    {
      "id": "12",
      "resourceType": "Procedure",
      "location": {
        "display": "Shock-Room"
      },
      "note": [
        {}
      ],
      "category": {
        "text": "one-shot"
      },
      "code": {
        "text": "supraglottic-presidium"
      },
      "encounter": {
        "reference": "#com.oracolo.fhir.model.domain.Encounter@4aab5454",
        "type": "Encounter",
        "display": "Encounter intervention"
      },
      "performedDateTime": "2020-02-04T02:58:34Z"
    },
    {
      "id": "13",
      "resourceType": "Procedure",
      "location": {
        "display": "Shock-Room"
      },
      "note": [
        {}
      ],
      "category": {
        "text": "one-shot"
      },
      "code": {
        "text": "intubation"
      },
      "encounter": {
        "reference": "#com.oracolo.fhir.model.domain.Encounter@4aab5454",
        "type": "Encounter",
        "display": "Encounter intervention"
      },
      "performedDateTime": "2020-02-04T02:58:36Z"
    },
    {
      "id": "14",
      "resourceType": "Procedure",
      "location": {
        "display": "Shock-Room"
      },
      "note": [
        {}
      ],
      "category": {
        "text": "one-shot"
      },
      "code": {
        "text": "infuser"
      },
      "encounter": {
        "reference": "#com.oracolo.fhir.model.domain.Encounter@4aab5454",
        "type": "Encounter",
        "display": "Encounter intervention"
      },
      "performedDateTime": "2020-02-04T02:58:37Z"
    },
    {
      "id": "15",
      "resourceType": "Procedure",
      "location": {
        "display": "Shock-Room"
      },
      "note": [
        {}
      ],
      "category": {
        "text": "one-shot"
      },
      "code": {
        "text": "pelvic-packing"
      },
      "encounter": {
        "reference": "#com.oracolo.fhir.model.domain.Encounter@4aab5454",
        "type": "Encounter",
        "display": "Encounter intervention"
      },
      "performedDateTime": "2020-02-04T02:58:39Z"
    },
    {
      "id": "16",
      "resourceType": "DiagnosticReport",
      "status": "final",
      "code": {
        "text": "thoracoabdominal-tc"
      },
      "encounter": {
        "reference": "#com.oracolo.fhir.model.domain.Encounter@4aab5454",
        "type": "Encounter",
        "display": "Encounter intervention"
      },
      "effectiveDateTime": "2020-02-04 14:58:41",
      "conclusion": "TC Toraco-Addominale (MdC)"
    },
    {
      "id": "17",
      "resourceType": "DiagnosticReport",
      "status": "final",
      "code": {
        "text": "abg"
      },
      "encounter": {
        "reference": "#com.oracolo.fhir.model.domain.Encounter@4aab5454",
        "type": "Encounter",
        "display": "Encounter intervention"
      },
      "effectiveDateTime": "2020-02-04 14:58:50",
      "result": [
        {
          "reference": "#41c7f99d-1f1a-4e2a-b688-616739ba8004",
          "type": "Observation",
          "display": "Observation lactates"
        },
        {
          "reference": "#eb13dfcf-d2ec-4607-9843-6b67127df08e",
          "type": "Observation",
          "display": "Observation be"
        },
        {
          "reference": "#b17924f6-daf6-4bc3-8282-d726963aa980",
          "type": "Observation",
          "display": "Observation be"
        },
        {
          "reference": "/Observation4123743c-9a3b-4980-a7a7-9d27e88c4dca",
          "type": "Observation",
          "display": "Observation hb"
        }
      ],
      "conclusion": "EGA"
    },
    {
      "id": "41c7f99d-1f1a-4e2a-b688-616739ba8004",
      "resourceType": "Observation",
      "status": "final",
      "code": {
        "text": "lactates"
      },
      "encounter": {
        "reference": "#com.oracolo.fhir.model.domain.Encounter@4aab5454",
        "type": "Encounter",
        "display": "Encounter intervention"
      },
      "effectiveDateTime": "2020-02-04T02:58:50Z",
      "valueQuantity": {
        "value": 25
      }
    },
    {
      "id": "eb13dfcf-d2ec-4607-9843-6b67127df08e",
      "resourceType": "Observation",
      "status": "final",
      "code": {
        "text": "be"
      },
      "encounter": {
        "reference": "#130f1db9-abd6-497c-b8e1-3a5cd8702c37",
        "type": "Encounter",
        "display": "Encounter intervention"
      },
      "effectiveDateTime": "2020-02-04T02:58:50Z",
      "valueQuantity": {
        "value": 3
      }
    },
    {
      "id": "b17924f6-daf6-4bc3-8282-d726963aa980",
      "resourceType": "Observation",
      "status": "final",
      "code": {
        "text": "ph"
      },
      "encounter": {
        "reference": "#130f1db9-abd6-497c-b8e1-3a5cd8702c37",
        "type": "Encounter",
        "display": "Encounter intervention"
      },
      "effectiveDateTime": "2020-02-04T02:58:50Z",
      "valueQuantity": {
        "value": 6
      }
    },
    {
      "id": "4123743c-9a3b-4980-a7a7-9d27e88c4dca",
      "resourceType": "Observation",
      "status": "final",
      "code": {
        "text": "hb"
      },
      "encounter": {
        "reference": "#130f1db9-abd6-497c-b8e1-3a5cd8702c37",
        "type": "Encounter",
        "display": "Encounter intervention"
      },
      "effectiveDateTime": "2020-02-04T02:58:50Z",
      "valueQuantity": {
        "value": 96
      }
    },
    {
      "id": "18",
      "resourceType": "DiagnosticReport",
      "status": "final",
      "code": {
        "text": "rotem"
      },
      "encounter": {
        "reference": "#com.oracolo.fhir.model.domain.Encounter@4aab5454",
        "type": "Encounter",
        "display": "Encounter intervention"
      },
      "effectiveDateTime": "2020-02-04 14:59:01",
      "result": [
        {
          "reference": "#ed25c7b2-fd46-4da8-ad75-3ec4de92d57c",
          "type": "Observation",
          "display": "Observation fibtem"
        },
        {
          "reference": "#54f791dc-8caf-4479-9704-6e18259fbd6f",
          "type": "Observation",
          "display": "Observation extem"
        },
        {
          "reference": "#7ad4943c-bbef-4617-8e21-1af88212381e",
          "type": "Observation",
          "display": "Observation hyperfibrinolysis"
        }
      ],
      "conclusion": "ROTEM"
    },
    {
      "id": "ed25c7b2-fd46-4da8-ad75-3ec4de92d57c",
      "resourceType": "Observation",
      "status": "final",
      "code": {
        "text": "fibtem"
      },
      "encounter": {
        "reference": "#130f1db9-abd6-497c-b8e1-3a5cd8702c37",
        "type": "Encounter",
        "display": "Encounter intervention"
      },
      "effectiveDateTime": "2020-02-04T02:59:01Z",
      "valueString": "A5 = 96"
    },
    {
      "id": "54f791dc-8caf-4479-9704-6e18259fbd6f",
      "resourceType": "Observation",
      "status": "final",
      "code": {
        "text": "extem"
      },
      "encounter": {
        "reference": "#130f1db9-abd6-497c-b8e1-3a5cd8702c37",
        "type": "Encounter",
        "display": "Encounter intervention"
      },
      "effectiveDateTime": "2020-02-04T02:59:01Z",
      "valueString": "CT = 25; A10 = 96; alpha = 96"
    },
    {
      "id": "7ad4943c-bbef-4617-8e21-1af88212381e",
      "resourceType": "Observation",
      "status": "final",
      "code": {
        "text": "hyperfibrinolysis"
      },
      "encounter": {
        "reference": "#130f1db9-abd6-497c-b8e1-3a5cd8702c37",
        "type": "Encounter",
        "display": "Encounter intervention"
      },
      "effectiveDateTime": "2020-02-04T02:59:01Z",
      "valueBoolean": true
    },
    {
      "id": "19",
      "resourceType": "Procedure",
      "location": {
        "display": "Shock-Room"
      },
      "status": "completed",
      "code": {
        "text": "room-out"
      },
      "encounter": {
        "reference": "#130f1db9-abd6-497c-b8e1-3a5cd8702c37",
        "type": "Encounter",
        "display": "Encounter intervention"
      },
      "performedDateTime": "2020-02-04T02:59:13Z"
    },
    {
      "id": "20",
      "resourceType": "Procedure",
      "location": {
        "display": "TAC PS"
      },
      "status": "completed",
      "code": {
        "text": "room-in"
      },
      "encounter": {
        "reference": "#130f1db9-abd6-497c-b8e1-3a5cd8702c37",
        "type": "Encounter",
        "display": "Encounter intervention"
      },
      "performedDateTime": "2020-02-04T02:59:13Z"
    },
    {
      "id": "21",
      "resourceType": "Procedure",
      "location": {
        "display": "TAC PS"
      },
      "status": "completed",
      "code": {
        "text": "room-out"
      },
      "encounter": {
        "reference": "#130f1db9-abd6-497c-b8e1-3a5cd8702c37",
        "type": "Encounter",
        "display": "Encounter intervention"
      },
      "performedDateTime": "2020-02-04T02:59:24Z"
    },
    {
      "id": "24",
      "resourceType": "Procedure",
      "location": {
        "display": "Shock-Room"
      },
      "status": "completed",
      "code": {
        "text": "room-in"
      },
      "encounter": {
        "reference": "#130f1db9-abd6-497c-b8e1-3a5cd8702c37",
        "type": "Encounter",
        "display": "Encounter intervention"
      },
      "performedDateTime": "2020-02-04T02:59:35Z"
    },
    {
      "id": "25",
      "resourceType": "Procedure",
      "location": {
        "display": "Shock-Room"
      },
      "status": "completed",
      "code": {
        "text": "room-out"
      },
      "encounter": {
        "reference": "#130f1db9-abd6-497c-b8e1-3a5cd8702c37",
        "type": "Encounter",
        "display": "Encounter intervention"
      },
      "performedDateTime": "2020-02-04T02:59:48Z"
    },
    {
      "id": "56a99f4e-11ed-41c0-9ea2-4c4d8ea65db9",
      "resourceType": "Practitioner",
      "identifier": [
        {
          "value": "vanni.agnoletti"
        },
        {
          "value": "Vanni Agnoletti"
        }
      ],
      "active": true
    },
    {
      "id": "741c9fc9-b2ba-4e4c-8461-0b9a773b9538",
      "resourceType": "Patient",
      "name": [
        {
          "family": "Rossi",
          "given": [
            "Mario"
          ]
        }
      ],
      "gender": "M"
    },
    {
      "id": "0",
      "resourceType": "Procedure",
      "location": {
        "display": "PRE-H"
      },
      "status": "completed",
      "code": {
        "text": "room-in"
      },
      "encounter": {
        "reference": "#b9d30708-c3e7-41de-836a-65c335201f59",
        "type": "Encounter",
        "display": "Encounter pre ospedalizzazione"
      },
      "performedDateTime": "2020-02-04T02:56:25Z"
    },
    {
      "id": "1",
      "resourceType": "Procedure",
      "location": {
        "display": "PRE-H"
      },
      "status": "completed",
      "code": {
        "coding": [
          {
            "system": "http://www.snomed.org/",
            "code": "32485007",
            "display": "Hospital admission (procedure)"
          }
        ],
        "text": "patient-accepted"
      },
      "encounter": {
        "reference": "#b9d30708-c3e7-41de-836a-65c335201f59",
        "type": "Encounter",
        "display": "Encounter pre ospedalizzazione"
      },
      "performedDateTime": "2020-02-04T02:57:59Z"
    },
    {
      "id": "22",
      "resourceType": "Procedure",
      "location": {
        "display": "Trasporto"
      },
      "status": "completed",
      "code": {
        "text": "room-in"
      },
      "encounter": {
        "reference": "#b9d30708-c3e7-41de-836a-65c335201f59",
        "type": "Encounter",
        "display": "Encounter pre ospedalizzazione"
      },
      "performedDateTime": "2020-02-04T02:59:24Z"
    },
    {
      "id": "23",
      "resourceType": "Procedure",
      "location": {
        "display": "Trasporto"
      },
      "status": "completed",
      "code": {
        "text": "room-out"
      },
      "encounter": {
        "reference": "#b9d30708-c3e7-41de-836a-65c335201f59",
        "type": "Encounter",
        "display": "Encounter pre ospedalizzazione"
      },
      "performedDateTime": "2020-02-04T02:59:35Z"
    }
  ],
  "resourceType": "Encounter",
  "identifier": [
    {
      "value": "rep-20200204-145625"
    },
    {
      "value": "1.2"
    }
  ],
  "status": "finished",
  "serviceType": {
    "coding": [
      {
        "code": "117",
        "display": "Emergency Medical"
      }
    ],
    "text": "Emergency intervention"
  },
  "subject": {
    "reference": "#741c9fc9-b2ba-4e4c-8461-0b9a773b9538",
    "type": "Patient",
    "display": "Mario Rossi età 40"
  },
  "participant": [
    {
      "type": [
        {
          "coding": [
            {
              "system": "http://terminology.hl7.org/CodeSystem/v3-ParticipationType",
              "code": "PPRF",
              "display": "primary performer"
            }
          ],
          "text": "Trauma Leader"
        }
      ],
      "individual": {
        "reference": "#39ad729e-95ec-4027-a197-6a36f0ce50d2",
        "type": "Practitioner",
        "display": "Vanni Agnoletti"
      }
    },
    {
      "type": [
        {
          "coding": [
            {
              "system": "http://terminology.hl7.org/CodeSystem/v3-ParticipationType",
              "code": "SPRF",
              "display": "secondary performer"
            }
          ],
          "text": "Trauma team members"
        }
      ],
      "individual": {
        "type": "Practitioner",
        "display": "Medico PS"
      }
    },
    {
      "type": [
        {
          "coding": [
            {
              "system": "http://terminology.hl7.org/CodeSystem/v3-ParticipationType",
              "code": "SPRF",
              "display": "secondary performer"
            }
          ],
          "text": "Trauma team members"
        }
      ],
      "individual": {
        "type": "Practitioner",
        "display": "Anestesista"
      }
    },
    {
      "type": [
        {
          "coding": [
            {
              "system": "http://terminology.hl7.org/CodeSystem/v3-ParticipationType",
              "code": "SPRF",
              "display": "secondary performer"
            }
          ],
          "text": "Trauma team members"
        }
      ],
      "individual": {
        "type": "Practitioner",
        "display": "Radiologo"
      }
    },
    {
      "type": [
        {
          "coding": [
            {
              "system": "http://terminology.hl7.org/CodeSystem/v3-ParticipationType",
              "code": "SPRF",
              "display": "secondary performer"
            }
          ],
          "text": "Trauma team members"
        }
      ],
      "individual": {
        "type": "Practitioner",
        "display": "Chirurgo Urgenze"
      }
    },
    {
      "type": [
        {
          "coding": [
            {
              "system": "http://terminology.hl7.org/CodeSystem/v3-ParticipationType",
              "code": "SPRF",
              "display": "secondary performer"
            }
          ],
          "text": "Trauma team members"
        }
      ],
      "individual": {
        "type": "Practitioner",
        "display": "Neurochirurgo"
      }
    },
    {
      "type": [
        {
          "coding": [
            {
              "system": "http://terminology.hl7.org/CodeSystem/v3-ParticipationType",
              "code": "SPRF",
              "display": "secondary performer"
            }
          ],
          "text": "Trauma team members"
        }
      ],
      "individual": {
        "type": "Practitioner",
        "display": "Chirurgo Ortopedico"
      }
    },
    {
      "type": [
        {
          "coding": [
            {
              "system": "http://terminology.hl7.org/CodeSystem/v3-ParticipationType",
              "code": "SPRF",
              "display": "secondary performer"
            }
          ],
          "text": "Trauma team members"
        }
      ],
      "individual": {
        "type": "Practitioner",
        "display": "Maxillo-Facciale"
      }
    },
    {
      "type": [
        {
          "coding": [
            {
              "system": "http://terminology.hl7.org/CodeSystem/v3-ParticipationType",
              "code": "SPRF",
              "display": "secondary performer"
            }
          ],
          "text": "Trauma team members"
        }
      ],
      "individual": {
        "type": "Practitioner",
        "display": "Urologo"
      }
    }
  ],
  "period": {
    "start": "2020-02-04T02:56:25Z",
    "end": "2020-02-04T02:59:48Z"
  },
  "reasonCode": [
    {
      "coding": [
        {
          "system": "http://www.snomed.org/",
          "code": "417163006",
          "display": "Traumatic AND/OR non-traumatic injury (disorder)"
        },
        {
          "system": "http://www.snomed.org/",
          "code": "418399005",
          "display": "Motor vehicle accident"
        }
      ],
      "text": "Trauma Condition gestione pre ospedaliera"
    }
  ],
  "diagnosis": [
    {
      "condition": {
        "reference": "/Condition/0368dfc5-8465-4f7b-a7cd-baa923310a80",
        "type": "Condition",
        "display": "Trauma Condition"
      },
      "use": {
        "coding": [
          {
            "system": "https://www.hl7.org/fhir/codesystem-diagnosis-role.html",
            "code": "AD",
            "display": "Admission diagnosis"
          }
        ],
        "text": "Trauma Condition"
      }
    },
    {
      "condition": {
        "reference": "/Condition/0e01308e-9845-46ec-baa5-704adf2df08e",
        "type": "Condition",
        "display": "Patient Initial Condition"
      },
      "use": {
        "coding": [
          {
            "system": "http://terminology.hl7.org/CodeSystem/diagnosis-role",
            "code": "pre-op",
            "display": "pre-op diagnosis"
          }
        ]
      }
    },
    {
      "condition": {
        "reference": "/fhirAPI/Condition/d7574c00-8834-4e47-b210-8c8f2072b64b",
        "type": "Condition",
        "display": "Injury Severity Score"
      },
      "use": {
        "coding": [
          {
            "code": "post-op",
            "display": "post-op diagnosis"
          }
        ]
      }
    }
  ],
  "hospitalization": {
    "destination": {
      "display": "Pronto Soccorso"
    }
  },
  "location": [
    {
      "location": {
        "display": "Elicottero"
      },
      "status": "completed",
      "physicalType": {
        "coding": [
          {
            "system": "https://www.hl7.org/fhir/valueset-location-physical-type.html",
            "code": "ve",
            "display": "Vehicle"
          }
        ],
        "text": "Trasporto con Elicottero"
      }
    },
    {
      "location": {
        "display": "Territorial Area: Cesena"
      },
      "physicalType": {
        "coding": [
          {
            "system": "https://www.hl7.org/fhir/codesystem-location-physical-type.html",
            "code": "si",
            "display": "Site"
          }
        ],
        "text": "Territorial Area"
      }
    },
    {
      "location": {
        "display": "PRE-H"
      },
      "period": {
        "start": "2020-02-04T02:56:25Z"
      }
    },
    {
      "location": {
        "display": "PRE-H"
      },
      "period": {
        "start": "2020-02-04T02:57:59Z"
      }
    },
    {
      "location": {
        "display": "Trasporto"
      },
      "period": {
        "start": "2020-02-04T02:59:24Z"
      }
    },
    {
      "location": {
        "display": "Trasporto"
      },
      "period": {
        "start": "2020-02-04T02:59:35Z"
      }
    },
    {
      "location": {
        "display": "Shock-Room"
      },
      "period": {
        "start": "2020-02-04T02:57:59Z"
      }
    },
    {
      "location": {
        "display": "Shock-Room"
      },
      "period": {
        "start": "2020-02-04T02:58:16Z"
      }
    },
    {
      "location": {
        "display": "Shock-Room"
      },
      "period": {
        "start": "2020-02-04T02:58:17Z"
      }
    },
    {
      "location": {
        "display": "Shock-Room"
      },
      "period": {
        "start": "2020-02-04T02:58:19Z"
      }
    },
    {
      "location": {
        "display": "Shock-Room"
      },
      "period": {
        "start": "2020-02-04T02:58:20Z"
      }
    },
    {
      "location": {
        "display": "Shock-Room"
      },
      "period": {
        "start": "2020-02-04T02:58:22Z"
      }
    },
    {
      "location": {
        "display": "Shock-Room"
      },
      "period": {
        "start": "2020-02-04T02:58:23Z"
      }
    },
    {
      "location": {
        "display": "Shock-Room"
      },
      "period": {
        "start": "2020-02-04T02:58:27Z"
      }
    },
    {
      "location": {
        "display": "Shock-Room"
      },
      "period": {
        "start": "2020-02-04T02:58:28Z"
      }
    },
    {
      "location": {
        "display": "Shock-Room"
      },
      "period": {
        "start": "2020-02-04T02:58:29Z"
      }
    },
    {
      "location": {
        "display": "Shock-Room"
      },
      "period": {
        "start": "2020-02-04T02:58:34Z"
      }
    },
    {
      "location": {
        "display": "Shock-Room"
      },
      "period": {
        "start": "2020-02-04T02:58:36Z"
      }
    },
    {
      "location": {
        "display": "Shock-Room"
      },
      "period": {
        "start": "2020-02-04T02:58:37Z"
      }
    },
    {
      "location": {
        "display": "Shock-Room"
      },
      "period": {
        "start": "2020-02-04T02:58:39Z"
      }
    },
    {
      "location": {
        "display": "Shock-Room"
      },
      "period": {
        "start": "2020-02-04T02:58:41Z"
      }
    },
    {
      "location": {
        "display": "Shock-Room"
      },
      "period": {
        "start": "2020-02-04T02:58:50Z"
      }
    },
    {
      "location": {
        "display": "Shock-Room"
      },
      "period": {
        "start": "2020-02-04T02:59:01Z"
      }
    },
    {
      "location": {
        "display": "Shock-Room"
      },
      "period": {
        "start": "2020-02-04T02:59:13Z"
      }
    },
    {
      "location": {
        "display": "TAC PS"
      },
      "period": {
        "start": "2020-02-04T02:59:13Z"
      }
    },
    {
      "location": {
        "display": "TAC PS"
      },
      "period": {
        "start": "2020-02-04T02:59:24Z"
      }
    },
    {
      "location": {
        "display": "Shock-Room"
      },
      "period": {
        "start": "2020-02-04T02:59:35Z"
      }
    },
    {
      "location": {
        "display": "Shock-Room"
      },
      "period": {
        "start": "2020-02-04T02:59:48Z"
      }
    }
  ],
  "serviceProvider": {
    "display": "Ospedale Bufalini"
  },
  "class": {
    "code": "EMER",
    "display": "Emergency"
  }
}
